Folder: SKlearn-and-Lolopy-comparison

Note: README.md
This repository is the comparison of SKlearn andd Lolopy libraries. 




# SKlearn-and-Lolopy-comparison
SKlearn and Lolopy comparison
lolopy==1.1.1
matminer==0.7.8
matminer.egg==info
matplotlib==3.1.3
numpy==1.18.5
pandas==1.0.1
pymatgen==2019.12.22
python_ternary==1.0.7
scikit_learn==1.1.3
scipy==1.5.2
ternary==0.1

File: Data_Starry_2nd_gen_TC_model_Nov_22.csv
,REFERENCE: doi,NAME,FORMULA,Family,PROPERTY: Material Family,IDENTIFIER: sampleid,IDENTIFIER: paperid,IDENTIFIER: figureid,PROPERTY: Temperature (K),PROPERTY: Seebeck coefficient (V/K),PROPERTY: Thermal conductivity (W*m^(-1)*K^(-1)),PROPERTY: Power factor (W*m^(-1)*K^(-2)),PROPERTY: ZT (-),PROPERTY: Electrical conductivity (S*m^(-1)),PROPERTY: sigma_E_0,PROPERTY: log sigma_E_0,PROPERTY: quality_factor,PROPERTY: log quality_factor,inexpensive,non-toxic,n_elements,electron_count,PROPERTY: Seebeck coefficient (muV/K),|S|(muV/K),,L,L*sigma*T,Electronic thermal conductivity,Lattice thermal conductivity,
42318,10.1063/1.36635,Tm,BaTmCo4O7,,,24909,2038,20199,300,0.000135102,0.420722,5.91E-07,0.000304311,37.7204,23.665,1.37411,0.000125367,,1,TRUE,4,0,135.102,135.102,0.312025,1.81202,1.81202E-08,0.000205051,0.420517,
41368,10.1007/s11664-015-4128-3,"(0.50,1.25)",Zn0.5Cu11.5Sb2.75Te1.25S13,Toxic,,8073,10920,6590,300,0.000149042,0.604083,,0.123377,206.916,154.082,2.18775,0.000569239,,1,FALSE,5,0,149.042,149.042,0.276694,1.77669,1.77669E-08,0.001102878,0.60298,
40552,10.1016/j.jmat.2016.05.001,SnCd0.05Te-12%AgSbSe2,Cd0.05Ag0.12Sn0.88Sb0.12Te0.64Se0.24,Toxic,,3061,18613,2024,300,4.84E-05,2.80851,0.000570002,0.0579454,2437,419.053,2.62227,0.000334342,,1,FALSE,6,0,48.4,48.4,0.658862,2.15886,2.15886E-08,0.0157834,2.79272,
39774,10.1039/b914555a,CuSi2P3,CuSi2P3,,,21361,770,17775,300,0.000394675,5.33244,,0.000618934,65.8157,868.527,2.93878,0.000362868,,1,TRUE,3,33,394.675,394.675,0.0332942,1.53329,1.53329E-08,0.000302744,5.33213,
39058,10.1016/j.actamat.2013.03.031,after HPT_Tup,D1.1Ba0.03Sr0.01Yb0.02Fe2.4Ni1.6Sb12,Skutterudite,,4871,5837,3618,300,-6.39E-05,1.07143,,0.107524,5648.23,1307.44,3.11642,0.002812911,,1,TRUE,7,0,-63.9,63.9,0.576453,2.07645,2.07645E-08,0.0351848,1.03624,
38341,10.1063/1.48081,y=0.045,Fe1Cu0.045Sb2,,,19617,383,16443,300,1.55E-05,0.809889,0.11103,0.002700876,35043.9,1911.45,3.28136,0.007664657,,1,TRUE,3,18,15.5,15.5,0.874922,2.37492,2.37492E-08,0.249679,0.56021,
37697,10.1002/pssr.201004193,(C),Yb14Mn1.15Sb11,Zintl,,6408,4501,5067,300,0.000156541,0.933138,,0.0185185,3044.06,2482.73,3.39493,0.00602798,,1,TRUE,3,0,156.541,156.541,0.259372,1.75937,1.75937E-08,0.0160669,0.917071,
37125,10.1021/cm901766y,Dy_0.08,Ca0.92Dy0.08Mn1O3,Perovskite,,26968,587,21661,300,-0.000105996,2.71489,8.2E-05,0.0234013,7009.19,3029.29,3.48134,0.00252255,,1,TRUE,4,0,-105.996,105.996,0.401014,1.90101,1.90101E-08,0.0399737,2.67492,
36476,10.1002/chem.201001990,Type-III,Si132Te21.5P40,Clathrate,Clathrate,601,556,267,300,0.000171575,3.20835,0.000102632,0.0242152,3689.64,3604.79,3.55688,0.00251755,,1,FALSE,3,857,171.575,171.575,0.227844,1.72784,1.72784E-08,0.0191254,3.18922,
35844,10.1063/1.49314,x=0,Zn4Sb3,Zintl,Antimonide,16507,422,14007,300,0.00011645,1.0285,0.000115876,0.0341637,8619.54,4271.79,3.63061,0.009701355,,1,TRUE,2,55,116.45,116.45,0.366455,1.86646,1.86646E-08,0.0482639,0.98024,
35204,10.1007/s11664-016-4880-z,S1,ZnCu2SnSe4,Toxic,,14999,11023,12706,300,7.87E-05,1.66388,0.00010425,0.0300485,16891.7,4964.61,3.69588,0.007084738,,1,TRUE,4,0,78.7,78.7,0.507404,2.0074,2.0074E-08,0.101725,1.56216,
34583,10.1039/c4ta05135a,PbBi2S4_out-of-plane,Bi2PbS4,Toxic,,9460,2802,7767,300,-0.000135867,0.63822,0.00016364,0.0799439,8942.65,5663.95,3.75312,0.0213579,,1,FALSE,3,0,-135.867,135.867,0.309974,1.80997,1.80997E-08,0.0485579,0.589662,
33898,10.1039/c3ta14021k,A,Yb9Mn4.2Sb9,Antimonide,Antimonide,13124,2778,10969,300,5.9E-05,0.682438,,0.0347453,30526.2,6465.685,3.81061,0.0297055,,1,TRUE,3,0,59,59,0.601324,2.10132,2.10132E-08,0.192436,0.490002,
33149,10.1039/c3ta12508d,Cu1.98Ag0.2Se,Cu1.98Ag0.2Se1,Toxic,,13567,2771,11343,300,4.79E-05,0.870207,,0.0362782,43257.9,7365.3,3.86719,0.0282803,,1,TRUE,3,0,47.9,47.9,0.661708,2.16171,2.16171E-08,0.280533,0.589674,
32522,10.1063/1.48218,x=0,TiSe2,Toxic,,14957,10318,12662,300,3.62E-05,1.85158,,0.0125987,64381,8233.82,3.9156,0.0130614,,1,TRUE,2,0,36.2,36.2,0.731931,2.23193,2.23193E-08,0.431082,1.4205,
31910,10.1140/epjb/e2011-20159-1,CeNi4Cr,CeCrNi4,,,17866,8153,15180,300,4.47E-06,,,0.000423976,572786,9026.98,3.95554,,,1,TRUE,3,0,4.47,4.47,0.962199,2.4622,2.4622E-08,4.23094,-4.23094,
31212,10.1063/1.36518,10min 400C,FeSb2,Antimonide,,19661,6815,16497,300,3.12E-05,5.68868,,0.000602894,91802.3,10092.7,4.00401,0.004459116,,1,TRUE,2,18,31.2,31.2,0.76417,2.26417,2.26417E-08,0.623568,5.06511,
30660,10.1016/j.solidstatesciences.2009.11.003,x=0.01,Zn4Sb2.97Se0.03,Toxic,Antimonide,17200,5362,14695,300,0.000126693,0.869785,,0.0667992,19252.6,10872.5,4.03633,0.0316275,,1,TRUE,3,0,126.693,126.693,0.335484,1.83548,1.83548E-08,0.106014,0.763772,
30014,10.1021/acs.chemmater.5b01301,x=4.4,Eu11Zn4.4Cd1.6Sb12,Skutterudite,,6019,635,4737,300,8.02E-05,1.01035,,0.06115495,39233.1,11792.6,4.07161,0.0340012,,1,FALSE,4,0,80.2,80.2,0.500885,2.00088,2.00088E-08,0.235503,0.774847,
29282,10.1002/adfm.201400123,x=0.38,Mg2Si0.4Sn0.22Sb0.38,Mg2Si,Mg2Si,8249,141,6757,300,-8.58E-05,1.7976,,0.0726231,39502.4,12902.7,4.11068,0.01840072,,1,TRUE,4,8,-85.8,85.8,0.477278,1.97728,1.97728E-08,0.234322,1.56327,
28732,10.1016/j.materresbull.2009.05.002,Bi0.5Sb1.5Te2S,Bi0.5Sb1.5Te2S1,Toxic,,7479,3804,6049,300,7.46E-05,1.75566,,0.0464865,49827.3,13735.5,4.13784,0.0211227,,1,FALSE,4,0,74.6,74.6,0.525659,2.02566,2.02566E-08,0.302799,1.45286,
28136,10.1016/j.jallcom.2016.04.210,x=0,Ba4Cu3Si20,Clathrate,,2224,9813,1389,300,2.64E-05,2.37629,0.000113867,0.0137353,157160,14633.3,4.16534,0.0259303,,1,TRUE,3,118,26.4,26.4,0.796454,2.29645,2.29645E-08,1.08274,1.29356,
27472,10.1016/j.jallcom.2014.03.017,CoSb3,CoSb3,Skutterudite,Skutterudite,3735,1772,2549,300,0.000130916,4.69074,0.00045513,0.0386193,26333.3,15681.2,4.19538,0.007678218,,1,TRUE,2,24,130.916,130.916,0.32349,1.82349,1.82349E-08,0.144056,4.54669,
26944,10.3390/app8010052,x=0.19(presented),Ag0.81Sb1.19Te2.19,Toxic,,10711,18753,8759,300,0.000175547,,,0.20419,16127.3,16520.9,4.21803,,,1,FALSE,3,27,175.547,175.547,0.220174,1.72017,1.72017E-08,0.0832255,-0.0832255,
26380,10.2320/jinstmet.69.497,"m=0.3,n=0",Ce0.3Fe1Co3Sb12,Skutterudite,,4647,4295,3410,300,6.18E-05,,,0.0836459,78482.5,17497.1,4.24297,,,1,TRUE,4,0,61.8,61.8,0.586983,2.08698,2.08698E-08,0.491375,-0.491375,
25886,10.1007/s40145-013-0040-6,x=0.1,Ti1.8Cr0.2Bi1.2S5.2,Toxic,,7838,9470,6395,300,-6.91E-05,1.38891,0.000300569,0.0525711,72538.1,18331.1,4.26319,0.0437023,,1,FALSE,4,0,-69.1,69.1,0.551182,2.05118,2.05118E-08,0.446367,0.942538,
25355,10.1063/1.49386,x=0.2,Tl0.2Fe1Co3Sb12,Skutterudite,,3335,188,2220,300,8.39E-05,2.34207,,0.0531672,60995.5,19373.3,4.2872,0.0218364,,1,TRUE,4,95,83.9,83.9,0.48516,1.98516,1.98516E-08,0.363258,1.97881,
24826,10.3938/jkps.60.1735,673K-40Mpa,Zn4Sb3,Zintl,Antimonide,13272,3568,11100,300,7.67E-05,0.95179,0.000426062,0.156243,71400.2,20340,4.30835,0.0880453,,1,TRUE,2,55,76.7,76.7,0.516228,2.01623,2.01623E-08,0.431877,0.519913,
24262,10.1021/ja203186f,VO2(M),MVO2,,,24106,3488,19535,300,-0.000131941,,0.000610844,0.0612322,35493,21407.9,4.33057,,,1,TRUE,3,0,-131.941,131.941,0.320644,1.82064,1.82064E-08,0.19386,-0.19386,
23659,10.1007/s11664-015-3882-6,x=0.005,La0.005Zr0.995Ni1Sn1,Half-heusler,,11515,2658,9521,300,-0.000129808,6.53846,0.000825582,0.0345275,38471.4,22593.8,4.35399,0.007949035,,1,TRUE,4,17,-129.808,129.808,0.326595,1.82659,1.82659E-08,0.210815,6.32765,
23076,10.1002/aenm.201100460,0.2,Ag0.2928Sn0.2Sb0.4464Te1,Toxic,,21012,5925,17500,300,0.000130224,0.7334,0.000658469,0.266222,40428.7,23867.1,4.3778,0.102918,,1,FALSE,4,11,130.224,130.224,0.325426,1.82543,1.82543E-08,0.221399,0.512001,
22378,10.3938/jkps.64.1346,Mg2Si0.7Ge0.3Sb0.02,Mg2Si0.7Ge0.3Sb0.02,Mg2Si,Mg2Si,9174,3582,7542,300,-0.000150824,3.58435,,0.0516841,33217.5,25278.1,4.40274,0.0165015,,1,TRUE,4,8,-150.824,150.824,0.272475,1.77248,1.77248E-08,0.176632,3.40772,
21859,10.1063/1.49015,y=0.05,Tl9Bi0.95Te6Pb0.05,Toxic,,14200,2168,11976,300,0.000108577,0.551362,0.000695172,0.413065,58945,26361.4,4.42097,0.266699,,1,FALSE,4,67,108.577,108.577,0.39219,1.89219,1.89219E-08,0.334606,0.216757,
21229,10.3938/jkps.65.57,Mg2Si0.7Ge0.3,Mg2Si0.7Ge0.3,Mg2Si,Mg2Si,9203,3586,7577,300,-0.000486016,3.31956,0.000175453,0.0170619,728.354,27743.4,4.44316,0.0186369,,1,TRUE,3,8,-486.016,486.016,0.0151494,1.51515,1.51515E-08,0.003310695,3.31624,
20611,10.1063/1.36064,Ga0.15Co4Sb12,Ga0.15Co4Sb12,Skutterudite,Skutterudite,3980,2032,2730,300,-0.000314743,5.11454,,0.398062,5579.11,29106.5,4.46399,0.0127414,,1,TRUE,3,96,-314.743,314.743,0.0663175,1.56632,1.56632E-08,0.026216,5.08832,
19888,10.1021/ja400069s,Pb0.98Sr0.01Na0.01Se1,Na0.01Sr0.01Pb0.98Se1,Toxic,,286,3503,4876,300,3.08E-05,3.73604,0.000270378,0.0255319,285057,30935.3,4.49045,0.0399075,,1,FALSE,4,0,30.8,30.8,0.766809,2.26681,2.26681E-08,1.93851,1.79754,
19211,10.1039/c3cp50918d,x=0.02,Ti1Ni1.02Sn1,,,11968,4595,9921,300,-0.000205515,4.29496,0.000916717,0.0773103,22329,32600.3,4.51322,0.0173454,,1,TRUE,3,18,-205.515,205.515,0.170047,1.67005,1.67005E-08,0.111871,4.18309,
18593,10.1134/s1063782611070128,BiTeI,BiTeI,Toxic,,12234,5231,10172,300,-5.55E-05,1.73777,,0.0895206,171716,34062.7,4.53228,0.1236,,1,FALSE,3,0,-55.5,55.5,0.619744,2.11974,2.11974E-08,1.09198,0.645788,
17872,10.1007/s11664-016-4352-5,x=0.12,Mn0.12Sn0.704Te1Pb0.176,Toxic,,2854,10994,1897,300,4.88E-05,2.31481,,0.0558497,206852,35872.1,4.55476,0.085764,,1,FALSE,4,10,48.8,48.8,0.656594,2.15659,2.15659E-08,1.33829,0.976527,
17290,10.1109/ict.2005.1519908,x=0.05,Ca0.05Co4Sb12,Skutterudite,Skutterudite,5124,8915,3834,300,-0.000189785,5.03497,,0.0679187,30936.3,37522.9,4.5743,0.0171187,,1,TRUE,3,96,-189.785,189.785,0.194742,1.69474,1.69474E-08,0.157287,4.87768,
16681,10.1016/j.actamat.2016.05.041,M=Ti,Ti1Co1Sn0.15Sb0.85,,,12125,5870,10066,300,0.000205155,6.30941,,0.0634361,27086.1,39378,4.59525,0.0141985,,1,TRUE,4,17,205.155,205.155,0.170575,1.67058,1.67058E-08,0.135748,6.17366,
15920,10.1039/b916346h,x=0.3,Eu1Zn1.4Cd0.6Sb2,Toxic,Antimonide,12886,769,10694,300,0.000145287,1.82981,0.001257197,0.194091,58524.2,41627.1,4.61938,0.0608303,,1,FALSE,4,0,145.287,145.287,0.285797,1.7858,1.7858E-08,0.313537,1.51628,
15313,10.1016/j.scriptamat.2012.04.005,a_BI2Te3,BTe3I2,Toxic,,5662,5190,4376,300,-0.000101199,1.61762,0.001099831,0.1735,106839,43295.8,4.63645,0.0958336,,1,FALSE,3,0,-101.199,101.199,0.417945,1.91795,1.91795E-08,0.614735,1.00289,
14618,10.1007/s11664-012-2442-6,x=0.030,Mg2Si0.97Sb0.03,Mg2Si,Mg2Si,8596,2464,7064,300,-5.23E-05,,,0.0276161,244495,45605,4.65901,,,1,TRUE,3,8,-52.3,52.3,0.637079,2.13708,2.13708E-08,1.56751,-1.56751,
14152,10.1016/j.jallcom.2017.02.283,I+M 5h,SnTe,Toxic,,3000,18607,1978,300,3.48E-05,3.14569,0.000444647,0.0297471,383552.154,47187.6,4.67383,0.223091,,1,FALSE,2,10,34.8,34.8,0.740818,2.24082,2.24082E-08,2.57841,0.567274,
14151,10.1016/j.apsusc.2014.02.173,"Before aging,no coating",CoSb3,Skutterudite,Skutterudite,3397,434,2280,300,8.95E-05,9.08743,,0.033598,137049,47195.4,4.6739,0.0126999,,1,TRUE,2,24,89.5,89.5,0.462295,1.9623,1.9623E-08,0.806793,8.28063,
14146,10.1557/jmr.2012.171,MS Hf0.5Zr0.5NiSn0.995Sb0.005,Hf0.5Zr0.5Ni1Sn0.995Sb0.005,Half-heusler,,11717,2905,9672,300,-0.000117522,3.62362,,0.108475,94014.7,47241.2,4.67432,0.0338824,,1,TRUE,5,18,-117.522,117.522,0.363084,1.86308,1.86308E-08,0.525472,3.09815,
13779,10.1007/s11664-011-1618-9,M10,AgGe9Sb6Te11,Toxic,,17060,11182,14588,300,6E-05,2.66855,0.000794826,0.0851656,225326,48643.2,4.68702,0.08917,,1,FALSE,4,142,60,60,0.596163,2.09616,2.09616E-08,1.41696,1.25159,
13413,10.1016/j.jmst.2014.05.007,Yb-6,Yb0.77Fe2.99Ni1.01Sb12,Skutterudite,,4269,2988,3048,300,0.000126277,1.88073,,0.242585,88934.4,49961.6,4.69864,0.0794951,,1,TRUE,4,0,126.277,126.277,0.336689,1.83669,1.83669E-08,0.490035,1.39069,
13097,10.1039/c5ta02721g,Cu0.98AgSe,Cu0.98Ag1Se1,Toxic,,13645,2819,11400,300,-9.43E-05,1.56749,,0.239003,138557,51061.5,4.70809,0.149568,,1,TRUE,3,0,-94.3,94.3,0.443556,1.94356,1.94356E-08,0.807882,0.759608,
12751,10.1142/s1793604713400067,DD0.78Fe3CoSb12,Pr0.195Nd0.585Fe3Co1Sb12,Skutterudite,,27598,969,22168,300,0.000110482,1.846875,0.001330803,0.21489,114268,52400.3,4.71933,0.0966539,,1,TRUE,5,0,110.482,110.482,0.385802,1.8858,1.8858E-08,0.646463,1.20041,
12442,10.3938/jkps.57.773,"z=0.05,x=0.2",In0.05Co3.8Ni0.2Sb12,Skutterudite,,4399,3560,3173,300,-0.000205722,3.7172,0.00155395,0.128256,36719.8,53742.1,4.73031,0.0338231,,1,TRUE,4,96,-205.722,205.722,0.169744,1.66974,1.66974E-08,0.183938,3.53326,
12105,10.1039/c5tc01196e,Ti0.75Hf0.25,Hf0.25Ti0.75,Half-heusler,,11645,2837,9600,300,0.000206462,3.65063,,0.417597,37260.2,55007.3,4.74042,0.0353082,,1,TRUE,2,4,206.462,206.462,0.168664,1.66866,1.66866E-08,0.186524,3.46411,
11701,10.3938/jkps.66.1879,Pr0.5Nd0.5Fe3CoSb12,Pr0.5Nd0.5Fe3Co1Sb12,Skutterudite,,4452,3596,3232,300,0.000102817,2.28004,0.001469829,0.20977,136709,56623.1,4.75299,0.0840295,,1,TRUE,5,0,102.817,102.817,0.412156,1.91216,1.91216E-08,0.784226,1.49581,
11323,10.1007/s11664-016-4847-0,Ce0.25Pr0.75Fe3.5Co0.5Sb12,Ce0.25Pr0.75Fe3.5Co0.5Sb12,Skutterudite,,5693,11017,4411,300,9.29E-05,2.38606,0.001396887,0.183717,161130.742,58211.3,4.76501,0.0898026,,1,TRUE,5,0,92.9,92.9,0.448942,1.94894,1.94894E-08,0.942103,1.44395,
10975,10.1016/j.jpcs.2013.12.006,x=1,GeBi85Sb14,Toxic,,12081,3174,10026,300,-0.000103168,3.18009,0.001513374,0.141573,143540,59734,4.77622,0.056315,,1,FALSE,3,499,-103.168,103.168,0.410911,1.91091,1.91091E-08,0.822878,2.35721,
10581,10.1038/s41598-017-09572-9,15L,SnS2,Sulfied,,10777,18765,8830,300,-0.000141754,,1.83673,0.100006,90192.4,61431.2,4.78839,,,1,TRUE,2,0,-141.754,141.754,0.294635,1.79464,1.79464E-08,0.485587,-0.485587,
10274,10.1007/s11664-012-2253-9,Yb0.9Fe3CoSb12,Yb0.9Fe3Co1Sb12,Skutterudite,,4102,2429,2859,300,8.27E-05,2.95546,0.001361716,0.151961,202046,63029.7,4.79955,0.0806904,,1,TRUE,4,0,82.7,82.7,0.490205,1.99021,1.99021E-08,1.20634,1.74912,
9895,10.1021/nl104138t,Nano,Hf0.5Zr0.5Co1Sn0.2Sb0.8,Half-heusler,Half-Heusler,10877,4139,8954,300,0.000146716,0.000342008,0.001899582,0.171966,89528.4,64801.7,4.81159,-0.310042,,1,TRUE,5,17,146.716,146.716,0.282298,1.7823,1.7823E-08,0.478699,-0.478357,
9539,10.1016/j.matlet.2017.06.037,In0.3Co4Sb11.5Te0.5 3GPa,In0.3Co4Sb11.5Te0.5,Toxic,Cobaltite,17403,18702,14828,300,-0.000190029,2.6044,0.001969888,0.236069,54776.4,66631.4,4.82368,0.0635574,,1,FALSE,4,97,-190.029,190.029,0.194333,1.69433,1.69433E-08,0.278428,2.32597,
9228,10.1007/s11664-013-2824-4,903K(b),Co4Sb11.3Te0.5Se0.2,Toxic,,4144,2528,2908,300,-0.000149698,3.38101,0.002030243,0.178632,91140.6,68413.7,4.83514,0.0523926,,1,FALSE,4,0,-149.698,149.698,0.275133,1.77513,1.77513E-08,0.48536,2.89565,
8814,10.1007/s11664-015-4282-7,La0.25Yb0.75Fe3.75Ni0.25Sb12,La0.25Yb0.75Fe3.75Ni0.25Sb12,Skutterudite,,5674,10948,4389,300,9.14E-05,2.76882,0.001647277,0.197201,200000,70791.7,4.84998,0.0988764,,1,TRUE,5,0,91.4,91.4,0.454785,1.95478,1.95478E-08,1.17287,1.59595,
8431,10.1007/s11664-012-2290-4,In0.3Co4Sb12,In0.3Co4Sb12,Skutterudite,Skutterudite,4121,2440,2877,300,-0.000225713,5.06044,,0.131192,39324.8,72756.7,4.86187,0.0332586,,1,TRUE,3,96,-225.713,225.713,0.142873,1.64287,1.64287E-08,0.193817,4.86662,
8091,10.1016/j.physb.2006.03.068,Ce0.40Yb0.53Fe4Sb12,Yb0.53Ce0.4Fe4Sb12,Skutterudite,,4678,4423,3426,300,7.69E-05,2.80781,,0.0537985,260845,74623.3,4.87287,0.13715,,1,TRUE,4,0,76.9,76.9,0.515339,2.01534,2.01534E-08,1.57707,1.23073,
7681,10.1063/1.49277,green,Hf0.6Zr0.4Ni1Sn0.995Sb0.005,Half-heusler,,10585,421,8666,300,-0.000171976,4.20294,0.00226546,0.107913,78181.8,76749.6,4.88508,0.0448659,,1,TRUE,5,18,-171.976,171.976,0.227058,1.72706,1.72706E-08,0.4050735,3.79787,
7400,10.1039/c1jm00025j,x=0.023,Mg2Si0.477Sn0.5Sb0.023,Mg2Si,Mg2Si,8680,2734,7147,300,-8.57E-05,3.9807,0.001441478,0.125776,240517,78499,4.89486,0.0686681,,1,TRUE,4,8,-85.7,85.7,0.47769,1.97769,1.97769E-08,1.42701,2.55369,
7057,10.1016/j.intermet.2012.03.007,x=0.2,Ga0.2Co4Sb11.7Te0.3,Toxic,,3468,1258,2333,300,-0.000168025,3.99894,,0.183783,86149.6,80670.4,4.90671,0.0504151,,1,FALSE,4,96,-168.025,168.025,0.234924,1.73492,1.73492E-08,0.448389,3.55055,
6534,10.1007/s11664-013-2670-4,"3% substituted Cr, single-crystalline",Cr0.03Bi1.97Te3,Toxic,,9420,2500,7728,300,0.000211888,2.09615,0.002446007,0.349985,53301.9,83869.541,4.9236,0.101549,,1,FALSE,3,28,211.888,211.888,0.160957,1.66096,1.66096E-08,0.265597,1.83055,
6180,10.1016/j.actamat.2012.04.038,h,Ba0.45Ca0.35Fe4Sb12,Skutterudite,,4855,5830,3607,300,7.99E-05,2.71526,0.001800765,0.21819,290062,86767.7,4.93836,0.20215,,1,TRUE,4,93,79.9,79.9,0.502182,2.00218,2.00218E-08,1.74227,0.972991,
5873,10.1016/j.jallcom.2012.11.022,1g_per,Si0.8Ge0.2,,,21950,9645,18224,300,-0.000199482,,,0.278687,65593.7,89205.1,4.95039,,,1,TRUE,2,4,-199.482,199.482,0.179125,1.67912,1.67912E-08,0.33042,-0.33042,
5458,10.1007/s12613-011-0446-5,AgSbTe2,AgSbTe2,Toxic,,16668,1319,14186,300,0.000281647,0.770873,0.002150442,0.87591,26099.8,92685.6,4.96701,0.317419,,1,FALSE,3,27,281.647,281.647,0.0882138,1.58821,1.58821E-08,0.124356,0.646517,
5024,10.1109/ict.2007.4569459,"z=0.05,y=0.1",In0.05Co4Sb11.9Te0.1,Toxic,,5205,9107,3904,300,-0.000250275,0.508151,,0.102161,39145.2,96477.7,4.98443,0.661493,,1,FALSE,4,96,-250.275,250.275,0.115609,1.61561,1.61561E-08,0.18973,0.318421,
4656,10.1143/jjap.47.7470,"y=0.30,x=0.25",Sr0.3Co4Ge0.25Sb11.75,Zintl,,3491,1366,2356,300,-0.000111414,,,0.191495,214610,99625.3,4.99837,,,1,TRUE,4,96,-111.414,111.414,0.382715,1.88271,1.88271E-08,1.21215,-1.21215,
4176,10.3724/sp.j.1077.2009.00803,"y=0.18,x=0.05",Sr0.18Co4Sb11.95Te0.05,Toxic,,4826,5539,3561,300,-0.000125274,,0.002966105,0.156449,188132,104357.646,5.01852,,,1,FALSE,4,96,-125.274,125.274,0.339613,1.83961,1.83961E-08,1.03827,-1.03827,
3720,10.1016/j.mseb.2013.06.023,YB0.13Ba0.10Co4Sb12 VFQ,Ba0.1Yb0.13Co4Sb12,Skutterudite,Skutterudite,4603,3913,3380,300,-0.000113762,3.55312,,0.215576,230721,110431.851,5.04309,0.108264,,1,TRUE,4,0,-113.762,113.762,0.375046,1.87505,1.87505E-08,1.29784,2.25528,
3318,10.1063/1.29202,"x=0.08,y=0.09",Ba0.08Yb0.09Co4Sb12,Skutterudite,Skutterudite,3366,301,2250,300,-0.000126928,2.54507,,0.385828,204208,115664,5.0632,0.178574,,1,TRUE,4,0,-126.928,126.928,0.334805,1.83481,1.83481E-08,1.12405,1.42102,
2982,10.1007/s11664-011-1543-y,x=0.3,Ga66.6Re0.3Ru33.1,Expensive,,20007,11149,16744,300,7.18E-05,9.19419,0.002448822,0.104593,456137.133,120328,5.08037,0.0421498,,0,TRUE,3,466,71.8,71.8,0.538501,2.0385,2.0385E-08,2.78951,6.40469,
2623,10.1063/1.28214,"x=0.27,y=0.00,z=0.16",Ba0.27Co4Sb11.84,Zintl,,5368,10130,4069,300,-0.000135333,5.56882,,0.191676,201057,126503,5.1021,0.0626091,,1,TRUE,3,95,-135.333,135.333,0.311404,1.8114,1.8114E-08,1.09259,4.47623,
2058,10.1016/j.actamat.2009.03.018,Ba0.17Co4Sb12.03,Ba0.17Co4Sb12.03,Skutterudite,Skutterudite,3129,34,2076,300,-0.000132527,4.83333,,0.263799,225985,137304,5.13768,0.0843344,,1,TRUE,3,96,-132.527,132.527,0.319029,1.81903,1.81903E-08,1.23322,3.60012,
1335,10.1016/j.physb.2005.04.017,Nondoped,Mg2Si,Mg2Si,Mg2Si,9287,4420,7641,300,-0.000587433,10.4803,,0.004739336,1262.99,156076,5.19334,0.0331943,,1,TRUE,2,8,-587.433,587.433,0.006319738,1.50632,1.50632E-08,0.005707403,10.4746,
647,10.1063/1.23399,LaPdSb,LaSbPd,Half-heusler,Half-Heusler,10325,281,8430,300,9.33E-05,6.10602,0.00496063,0.26058,570242,207383,5.31677,0.166393,,0,TRUE,3,18,93.3,93.3,0.447396,1.9474,1.9474E-08,3.33146,2.77456,
242,10.1016/j.seta.2019.100604,Mg0.99Yb0.01Ag0.97Sb0.99,Yb0.01Mg0.99Ag0.97Sb0.99,Half-heusler,,26300,21306,21158,300,0.000212437,0.86414,,0.7051161,335366,531099,5.72518,-1.58309,,1,TRUE,4,0,212.437,212.437,0.160197,1.6602,1.6602E-08,1.67032,-0.806182,
44049,10.1007/s10853-008-3205-x,Ba8Ga16Zn3Ge27,Ba8Zn3Ga16Ge27,,,929,2946,528,300,0.000236014,1.34485,,0.108225,,,,,,1,TRUE,4,202,236.014,236.014,0.130732,1.63073,1.63073E-08,0,1.34485,
47373,10.1063/1.47401,x=0.1,Ce0.9In0.1Fe3.5Ni0.5Sb12,,,3995,2064,2746,300,9.99E-05,1.25677,0.540541,0.247011,,,,,,1,TRUE,5,0,99.9,99.9,0.422652,1.92265,1.92265E-08,0,1.25677,
49600,10.1039/c5tc01560j,x=0.02,Co0.98Ni0.02Sb1S1,,,7280,2840,5846,300,-0.000274476,6.22538,0.000350608,0.0137263,,,,,,1,TRUE,4,0,-274.476,274.476,0.0938392,1.59384,1.59384E-08,0,6.22538,
51420,10.1016/j.actamat.2008.12.039,??Ã¶?ÂºÃ†??Ã³z=0.04,Al0.0668Re0.73Si1.6032Ru0.24,Expensive,,10221,32,8289,300,4.14E-05,1.72,,0.0283,0.100503,0.01475,,1.91E-08,,0,TRUE,4,13,41.4,41.4,0.699845,2.19984,2.19984E-08,6.6327E-07,1.72,
54196,10.1063/1.36529,x=0.01,In4Se2.7Cl0.01,Toxic,,13370,2035,11179,300,-0.000152124,1.39419,0.000258454,0.0593183,,,,,,1,TRUE,3,0,-152.124,152.124,0.269439,1.76944,1.76944E-08,0,1.39419,
55261,10.1016/j.jssc.2013.02.008,Ga62.5%,Ga5(CuTe3)3,Toxic,,14578,3410,12377,300,0.000147291,2.54755,0.000125197,0.0270968,0.000104583,6.25E-05,,5.47E-11,,1,FALSE,3,99,147.291,147.291,0.280902,1.7809,1.7809E-08,5.58756E-10,2.54755,
58384,10.2497/jjspm.56.26,730?Ã¤Ã¢,Mg2Si,Mg2Si,Mg2Si,17182,1038,14683,300,-0.000254525,5.64834,,0.025,,,,,,1,TRUE,2,8,-254.525,254.525,0.11145,1.61145,1.61145E-08,0,5.64834,
67367,10.1016/j.cap.2009.10.009,x=0.15,Sr0.15La0.85Fe1O3,,,25083,745,20347,300,0.000312376,2.95439,,0.0010354,,,,,,1,TRUE,4,0,312.376,312.376,0.0676846,1.56768,1.56768E-08,0,2.95439,
71325,10.1007/s11664-014-3058-9,PT-CT,Ca0.1Pr0.6Ti1O3,,,28385,10822,22806,300,-0.00039703,1.86329,2.06E-09,5.8E-07,0.0139783,0.1895625,,2.27E-07,,1,TRUE,4,0,-397.03,397.03,0.03262513,1.53263,1.53263E-08,6.42705E-08,1.86329,
,[66],Nb0.76V0.01Ti0.2Fe1Sb1,Nb0.76V0.01Ti0.2Fe1Sb1,Half-heusler,Half-heusler,,,,300,,4.85,,,,,,,,,,,,,,,,,,4.85,
,[66],Nb0.72V0.02Ti0.2Fe1Sb1,Nb0.72V0.02Ti0.2Fe1Sb1,Half-heusler,Half-heusler,,,,300,,4.52,,,,,,,,,,,,,,,,,,4.52,
,[66],Nb0.6V0.05Ti0.2Fe1Sb1,Nb0.6V0.05Ti0.2Fe1Sb1,Half-heusler,Half-heusler,,,,300,,3.69,,,,,,,,,,,,,,,,,,3.69,
,[66],Nb0.48V0.08Ti0.2Fe1Sb1,Nb0.48V0.08Ti0.2Fe1Sb1,Half-heusler,Half-heusler,,,,300,,3.07,,,,,,,,,,,,,,,,,,3.07,
,[66],Nb0.36V0.11Ti0.2Fe1Sb1,Nb0.36V0.11Ti0.2Fe1Sb1,Half-heusler,Half-heusler,,,,300,,3.28,,,,,,,,,,,,,,,,,,3.28,
,[66],Nb0.24V0.14Ti0.2Fe1Sb1,Nb0.24V0.14Ti0.2Fe1Sb1,Half-heusler,Half-heusler,,,,300,,3.18,,,,,,,,,,,,,,,,,,3.18,
,[66],Nb0.12V0.17Ti0.2Fe1Sb1,Nb0.12V0.17Ti0.2Fe1Sb1,Half-heusler,Half-heusler,,,,300,,3.44,,,,,,,,,,,,,,,,,,3.44,
,[66],V0.8Ti0.2Fe1Sb1,V0.8Ti0.2Fe1Sb1,Half-heusler,Half-heusler,,,,300,,3.17,,,,,,,,,,,,,,,,,,3.17,
,[66],Nb0.8Ti0.2Fe1Sb1,Nb0.8Ti0.2Fe1Sb1,Half-heusler,Half-heusler,,,,300,,4.45,,,,,,,,,,,,,,,,,,4.45,
,[67],Nb0.768Ta0.032Ti0.2Fe1Sb1,Nb0.768Ta0.032Ti0.2Fe1Sb1,Half-heusler,Half-heusler,,,,300,,3.99,,,,,,,,,,,,,,,,,,3.99,
,[67],Nb0.704Ta0.096Ti0.2Fe1Sb1,Nb0.704Ta0.096Ti0.2Fe1Sb1,Half-heusler,Half-heusler,,,,300,,3.47,,,,,,,,,,,,,,,,,,3.47,
,[67],Nb0.64Ta0.16Ti0.2Fe1Sb1,Nb0.64Ta0.16Ti0.2Fe1Sb1,Half-heusler,Half-heusler,,,,300,,2.95,,,,,,,,,,,,,,,,,,2.95,
,[67],Nb0.608Ta0.192Ti0.2Fe1Sb1,Nb0.608Ta0.192Ti0.2Fe1Sb1,Half-heusler,Half-heusler,,,,300,,2.12,,,,,,,,,,,,,,,,,,2.12,
,[67],Nb0.544Ta0.256Ti0.2Fe1Sb1,Nb0.544Ta0.256Ti0.2Fe1Sb1,Half-heusler,Half-heusler,,,,300,,2.39,,,,,,,,,,,,,,,,,,2.39,
,[67],Nb0.512Ta0.288Ti0.2Fe1Sb1,Nb0.512Ta0.288Ti0.2Fe1Sb1,Half-heusler,Half-heusler,,,,300,,2.13,,,,,,,,,,,,,,,,,,2.13,
,[67],Nb0.48Ta0.32Ti0.2Fe1Sb1,Nb0.48Ta0.32Ti0.2Fe1Sb1,Half-heusler,Half-heusler,,,,300,,1.76,,,,,,,,,,,,,,,,,,1.76,
,[68],Ta0.79V0.05Ti0.16FeSb,Ta0.79V0.05Ti0.16FeSb,Half-heusler,Half-heusler,,,,300,,2.52,,,,,,,,,,,,,,,,,,2.52,
,[68],Ta0.74V0.1Ti0.16FeSb,Ta0.74V0.1Ti0.16FeSb,Half-heusler,Half-heusler,,,,300,,2.33,,,,,,,,,,,,,,,,,,2.33,
,[68],Ta0.69V0.15Ti0.16FeSb,Ta0.69V0.15Ti0.16FeSb,Half-heusler,Half-heusler,,,,300,,2.46,,,,,,,,,,,,,,,,,,2.46,
,unpublished,Ta.65V.15Ti.2FeSb,Ta.65V.15Ti.2FeSb,Half-heusler,Half-heusler,,,,300,,1.22,,,,,,,,,,,,,,,,,,1.22,
,unpublished,Ta.16V.08Nb.56Ti.2FeSb,Ta.16V.08Nb.56Ti.2FeSb,Half-heusler,Half-heusler,,,,300,,0.95,,,,,,,,,,,,,,,,,,0.95,
,unpublished,Ta.296V.504Ti.2FeSb,Ta.296V.504Ti.2FeSb,Half-heusler,Half-heusler,,,,300,,3.26,,,,,,,,,,,,,,,,,,3.26,
,unpublished,Ta.267V.267Nb.267Ti.2FeSb,Ta.267V.267Nb.267Ti.2FeSb,Half-heusler,Half-heusler,,,,300,,2.03,,,,,,,,,,,,,,,,,,2.03,
,unpublished,Ta.16Nb.64Ti.2FeSb,Ta.16Nb.64Ti.2FeSb,Half-heusler,Half-heusler,,,,300,,3.65,,,,,,,,,,,,,,,,,,3.65,
,unpublished,Ta.4Nb.4Ti.2FeSb,Ta.4Nb.4Ti.2FeSb,Half-heusler,Half-heusler,,,,300,,3.64,,,,,,,,,,,,,,,,,,3.64,
,unpublished,Ta.64Nb.16Ti.2FeSb,Ta.64Nb.16Ti.2FeSb,Half-heusler,Half-heusler,,,,300,,3.33,,,,,,,,,,,,,,,,,,3.33,
,unpublished,Ta.16V.48Nb.16Ti.2FeSb,Ta.16V.48Nb.16Ti.2FeSb,Half-heusler,Half-heusler,,,,300,,2.54,,,,,,,,,,,,,,,,,,2.54,
,unpublished,Ta0.8Ti0.2Fe1Sb1,Ta0.8Ti0.2Fe1Sb1,Half-heusler,Half-heusler,,,,300,,5.5,,,,,,,,,,,,,,,,,,5.5,
,unpublished,Nb0.8Ti0.2Fe1Sb1,Nb0.8Ti0.2Fe1Sb1,Half-heusler,Half-heusler,,,,300,,7.42,,,,,,,,,,,,,,,,,,7.42,